participant,final_rating,trial_list,rt,stimuli_type,delta_f,stimuli_direction,delta_t,response_f
TimoR,12.0,main_files/trial_tone/tone_150hz_75db_250ff-10p-120.wav,8.7666,tone,10,p,120,155.0
TimoR,13.0,main_files/trial_tone/tone_150hz_75db_250ff-10p-40.wav,2.627,tone,10,p,40,160.0
TimoR,13.0,main_files/trial_tone/tone_150hz_75db_250ff-20p-40.wav,6.8668,tone,20,p,40,160.0
TimoR,12.0,main_files/trial_tone/tone_150hz_75db_250ff-10p-100.wav,2.9091,tone,10,p,100,155.0
TimoR,11.0,main_files/trial_tone/tone_150hz_75db_250ff-20n-60.wav,4.9777,tone,20,n,60,150.0
TimoR,12.0,main_files/trial_tone/tone_150hz_75db_250ff-40p-120.wav,15.6023,tone,40,p,120,155.0
TimoR,12.0,main_files/trial_tone/tone_150hz_75db_250ff-10n-60.wav,2.6971,tone,10,n,60,155.0
TimoR,12.0,main_files/trial_tone/tone_150hz_75db_250ff-20n-80.wav,4.2254,tone,20,n,80,155.0
TimoR,11.0,main_files/trial_tone/tone_150hz_75db_250ff-20n-40.wav,4.2968,tone,20,n,40,150.0
TimoR,12.0,main_files/trial_tone/tone_150hz_75db_250ff-30n-60.wav,22.8341,tone,30,n,60,155.0
TimoR,9.0,main_files/trial_tone/tone_150hz_75db_250ff-30p-100.wav,10.3778,tone,30,p,100,140.0
TimoR,10.0,main_files/trial_tone/tone_150hz_75db_250ff-10p-80.wav,6.2262,tone,10,p,80,145.0
TimoR,13.0,main_files/trial_tone/tone_150hz_75db_250ff-20p-80.wav,6.1507,tone,20,p,80,160.0
TimoR,6.0,main_files/trial_tone/tone_150hz_75db_250ff-40n-120.wav,2.6835,tone,40,n,120,125.0
TimoR,13.0,main_files/trial_tone/tone_150hz_75db_250ff-30p-120.wav,2.1965,tone,30,p,120,160.0
TimoR,14.0,main_files/trial_tone/tone_150hz_75db_250ff-40n-60.wav,5.6361,tone,40,n,60,165.0
TimoR,12.0,main_files/trial_tone/tone_150hz_75db_250ff-10n-120.wav,5.9501,tone,10,n,120,155.0
TimoR,15.0,main_files/trial_tone/tone_150hz_75db_250ff-30p-80.wav,7.3518,tone,30,p,80,170.0
TimoR,14.0,main_files/trial_tone/tone_150hz_75db_250ff-40n-100.wav,2.3684,tone,40,n,100,165.0
TimoR,13.0,main_files/trial_tone/tone_150hz_75db_250ff-000-80.wav,2.3469,tone,0,0,0,160.0
TimoR,11.0,main_files/trial_tone/tone_150hz_75db_250ff-30n-80.wav,4.3368,tone,30,n,80,150.0
TimoR,11.0,main_files/trial_tone/tone_150hz_75db_250ff-30n-120.wav,6.3151,tone,30,n,120,150.0
TimoR,12.0,main_files/trial_tone/tone_150hz_75db_250ff-20p-60.wav,2.1822,tone,20,p,60,155.0
TimoR,10.0,main_files/trial_tone/tone_150hz_75db_250ff-10n-40.wav,8.5179,tone,10,n,40,145.0
TimoR,10.0,main_files/trial_tone/tone_150hz_75db_250ff-40p-60.wav,3.0323,tone,40,p,60,145.0
TimoR,12.0,main_files/trial_tone/tone_150hz_75db_250ff-000-60.wav,2.8597,tone,0,0,0,155.0
TimoR,12.0,main_files/trial_tone/tone_150hz_75db_250ff-000-40.wav,6.4831,tone,0,0,0,155.0
TimoR,10.0,main_files/trial_tone/tone_150hz_75db_250ff-20p-100.wav,4.2968,tone,20,p,100,145.0
TimoR,8.0,main_files/trial_tone/tone_150hz_75db_250ff-30n-100.wav,2.6641,tone,30,n,100,135.0
TimoR,9.0,main_files/trial_tone/tone_150hz_75db_250ff-20n-100.wav,2.008,tone,20,n,100,140.0
TimoR,9.0,main_files/trial_tone/tone_150hz_75db_250ff-30n-40.wav,1.8831,tone,30,n,40,140.0
TimoR,12.0,main_files/trial_tone/tone_150hz_75db_250ff-10n-80.wav,5.8397,tone,10,n,80,155.0
TimoR,13.0,main_files/trial_tone/tone_150hz_75db_250ff-40p-80.wav,5.2968,tone,40,p,80,160.0
TimoR,16.0,main_files/trial_tone/tone_150hz_75db_250ff-40p-100.wav,2.4183,tone,40,p,100,175.0
TimoR,13.0,main_files/trial_tone/tone_150hz_75db_250ff-000-100.wav,2.7003,tone,0,0,0,160.0
TimoR,11.0,main_files/trial_tone/tone_150hz_75db_250ff-40n-80.wav,0.0,tone,40,n,80,150.0
TimoR,11.0,main_files/trial_tone/tone_150hz_75db_250ff-20p-120.wav,0.0,tone,20,p,120,150.0
TimoR,12.0,main_files/trial_tone/tone_150hz_75db_250ff-10p-60.wav,19.3327,tone,10,p,60,155.0
TimoR,15.0,main_files/trial_tone/tone_150hz_75db_250ff-40p-40.wav,9.1607,tone,40,p,40,170.0
TimoR,13.0,main_files/trial_tone/tone_150hz_75db_250ff-30p-40.wav,1.84,tone,30,p,40,160.0
TimoR,6.0,main_files/trial_tone/tone_150hz_75db_250ff-40n-40.wav,5.2711,tone,40,n,40,125.0
TimoR,6.0,main_files/trial_tone/tone_150hz_75db_250ff-20n-120.wav,2.6812,tone,20,n,120,125.0
TimoR,8.0,main_files/trial_tone/tone_150hz_75db_250ff-30p-60.wav,7.7175,tone,30,p,60,135.0
TimoR,9.0,main_files/trial_tone/tone_150hz_75db_250ff-000-120.wav,1.8969,tone,0,0,0,140.0
TimoR,12.0,main_files/trial_tone/tone_150hz_75db_250ff-10n-100.wav,2.3946,tone,10,n,100,155.0
TimoR,10.0,main_files/trial_i/07_i_150hz_75db_250ff-10p-120.wav,13.4608,i,10,p,120,145.0
TimoR,11.0,main_files/trial_i/07_i_150hz_75db_250ff-10p-40.wav,4.1513,i,10,p,40,150.0
TimoR,12.0,main_files/trial_i/07_i_150hz_75db_250ff-20p-40.wav,2.3022,i,20,p,40,155.0
TimoR,12.0,main_files/trial_i/07_i_150hz_75db_250ff-10p-100.wav,7.3971,i,10,p,100,155.0
TimoR,10.0,main_files/trial_i/07_i_150hz_75db_250ff-20n-60.wav,3.0999,i,20,n,60,145.0
TimoR,14.0,main_files/trial_i/07_i_150hz_75db_250ff-40p-120.wav,4.6886,i,40,p,120,165.0
TimoR,10.0,main_files/trial_i/07_i_150hz_75db_250ff-10n-60.wav,4.5155,i,10,n,60,145.0
TimoR,12.0,main_files/trial_i/07_i_150hz_75db_250ff-20n-80.wav,2.3779,i,20,n,80,155.0
TimoR,12.0,main_files/trial_i/07_i_150hz_75db_250ff-20n-40.wav,3.696,i,20,n,40,155.0
TimoR,11.0,main_files/trial_i/07_i_150hz_75db_250ff-30n-60.wav,4.4291,i,30,n,60,150.0
TimoR,13.0,main_files/trial_i/07_i_150hz_75db_250ff-30p-100.wav,2.0982,i,30,p,100,160.0
TimoR,9.0,main_files/trial_i/07_i_150hz_75db_250ff-10p-80.wav,11.5487,i,10,p,80,140.0
TimoR,9.0,main_files/trial_i/07_i_150hz_75db_250ff-20p-80.wav,5.6422,i,20,p,80,140.0
TimoR,13.0,main_files/trial_i/07_i_150hz_75db_250ff-40n-120.wav,3.9684,i,40,n,120,160.0
TimoR,13.0,main_files/trial_i/07_i_150hz_75db_250ff-30p-120.wav,2.0454,i,30,p,120,160.0
TimoR,13.0,main_files/trial_i/07_i_150hz_75db_250ff-40n-60.wav,75.4321,i,40,n,60,160.0
TimoR,7.0,main_files/trial_i/07_i_150hz_75db_250ff-10n-120.wav,3.5481,i,10,n,120,130.0
TimoR,11.0,main_files/trial_i/07_i_150hz_75db_250ff-30p-80.wav,14.2674,i,30,p,80,150.0
TimoR,15.0,main_files/trial_i/07_i_150hz_75db_250ff-40n-100.wav,2.4448,i,40,n,100,170.0
TimoR,12.0,main_files/trial_i/07_i_150hz_75db_250ff-000-80.wav,2.4438,i,0,0,0,155.0
TimoR,9.0,main_files/trial_i/07_i_150hz_75db_250ff-30n-80.wav,1.9991,i,30,n,80,140.0
TimoR,14.0,main_files/trial_i/07_i_150hz_75db_250ff-30n-120.wav,1.8888,i,30,n,120,165.0
TimoR,12.0,main_files/trial_i/07_i_150hz_75db_250ff-20p-60.wav,2.4113,i,20,p,60,155.0
TimoR,11.0,main_files/trial_i/07_i_150hz_75db_250ff-10n-40.wav,0.0,i,10,n,40,150.0
TimoR,14.0,main_files/trial_i/07_i_150hz_75db_250ff-40p-60.wav,5.811,i,40,p,60,165.0
TimoR,10.0,main_files/trial_i/07_i_150hz_75db_250ff-000-60.wav,2.3641,i,0,0,0,145.0
TimoR,12.0,main_files/trial_i/07_i_150hz_75db_250ff-000-40.wav,2.0107,i,0,0,0,155.0
TimoR,11.0,main_files/trial_i/07_i_150hz_75db_250ff-20p-100.wav,0.0,i,20,p,100,150.0
TimoR,7.0,main_files/trial_i/07_i_150hz_75db_250ff-30n-100.wav,2.8975,i,30,n,100,130.0
TimoR,12.0,main_files/trial_i/07_i_150hz_75db_250ff-20n-100.wav,2.2979,i,20,n,100,155.0
TimoR,8.0,main_files/trial_i/07_i_150hz_75db_250ff-30n-40.wav,4.7991,i,30,n,40,135.0
TimoR,11.0,main_files/trial_i/07_i_150hz_75db_250ff-10n-80.wav,4.8815,i,10,n,80,150.0
TimoR,8.0,main_files/trial_i/07_i_150hz_75db_250ff-40p-80.wav,10.4038,i,40,p,80,135.0
TimoR,9.0,main_files/trial_i/07_i_150hz_75db_250ff-40p-100.wav,1.6124,i,40,p,100,140.0
TimoR,10.0,main_files/trial_i/07_i_150hz_75db_250ff-000-100.wav,3.5933,i,0,0,0,145.0
TimoR,15.0,main_files/trial_i/07_i_150hz_75db_250ff-40n-80.wav,3.2195,i,40,n,80,170.0
TimoR,10.0,main_files/trial_i/07_i_150hz_75db_250ff-20p-120.wav,3.6186,i,20,p,120,145.0
TimoR,12.0,main_files/trial_i/07_i_150hz_75db_250ff-10p-60.wav,2.0259,i,10,p,60,155.0
TimoR,9.0,main_files/trial_i/07_i_150hz_75db_250ff-40p-40.wav,6.5264,i,40,p,40,140.0
TimoR,12.0,main_files/trial_i/07_i_150hz_75db_250ff-30p-40.wav,2.0321,i,30,p,40,155.0
TimoR,12.0,main_files/trial_i/07_i_150hz_75db_250ff-40n-40.wav,5.7979,i,40,n,40,155.0
TimoR,10.0,main_files/trial_i/07_i_150hz_75db_250ff-20n-120.wav,2.314,i,20,n,120,145.0
TimoR,10.0,main_files/trial_i/07_i_150hz_75db_250ff-30p-60.wav,4.7862,i,30,p,60,145.0
TimoR,12.0,main_files/trial_i/07_i_150hz_75db_250ff-000-120.wav,2.2153,i,0,0,0,155.0
TimoR,11.0,main_files/trial_i/07_i_150hz_75db_250ff-10n-100.wav,2.2639,i,10,n,100,150.0
TimoR,11.0,main_files/trial_di/07_di_cross_150hz_75db_250ff-10p-120.wav,9.1623,di,10,p,120,150.0
TimoR,9.0,main_files/trial_di/07_di_cross_150hz_75db_250ff-10p-40.wav,6.0465,di,10,p,40,140.0
TimoR,12.0,main_files/trial_di/07_di_cross_150hz_75db_250ff-20p-40.wav,4.6316,di,20,p,40,155.0
TimoR,12.0,main_files/trial_di/07_di_cross_150hz_75db_250ff-10p-100.wav,6.7825,di,10,p,100,155.0
TimoR,8.0,main_files/trial_di/07_di_cross_150hz_75db_250ff-20n-60.wav,2.6097,di,20,n,60,135.0
TimoR,17.0,main_files/trial_di/07_di_cross_150hz_75db_250ff-40p-120.wav,2.1639,di,40,p,120,180.0
TimoR,14.0,main_files/trial_di/07_di_cross_150hz_75db_250ff-10n-60.wav,2.3314,di,10,n,60,165.0
TimoR,8.0,main_files/trial_di/07_di_cross_150hz_75db_250ff-20n-80.wav,4.0154,di,20,n,80,135.0
TimoR,10.0,main_files/trial_di/07_di_cross_150hz_75db_250ff-20n-40.wav,6.6979,di,20,n,40,145.0
TimoR,11.0,main_files/trial_di/07_di_cross_150hz_75db_250ff-30n-60.wav,2.8486,di,30,n,60,150.0
TimoR,11.0,main_files/trial_di/07_di_cross_150hz_75db_250ff-30p-100.wav,4.3792,di,30,p,100,150.0
TimoR,11.0,main_files/trial_di/07_di_cross_150hz_75db_250ff-10p-80.wav,0.0,di,10,p,80,150.0
TimoR,13.0,main_files/trial_di/07_di_cross_150hz_75db_250ff-20p-80.wav,3.4773,di,20,p,80,160.0
TimoR,4.0,main_files/trial_di/07_di_cross_150hz_75db_250ff-40n-120.wav,2.7843,di,40,n,120,115.0
TimoR,12.0,main_files/trial_di/07_di_cross_150hz_75db_250ff-30p-120.wav,2.4336,di,30,p,120,155.0
TimoR,8.0,main_files/trial_di/07_di_cross_150hz_75db_250ff-40n-60.wav,4.8338,di,40,n,60,135.0
TimoR,10.0,main_files/trial_di/07_di_cross_150hz_75db_250ff-10n-120.wav,2.1403,di,10,n,120,145.0
TimoR,9.0,main_files/trial_di/07_di_cross_150hz_75db_250ff-30p-80.wav,5.3134,di,30,p,80,140.0
TimoR,7.0,main_files/trial_di/07_di_cross_150hz_75db_250ff-40n-100.wav,4.6816,di,40,n,100,130.0
TimoR,10.0,main_files/trial_di/07_di_cross_150hz_75db_250ff-000-80.wav,2.4827,di,0,0,0,145.0
TimoR,7.0,main_files/trial_di/07_di_cross_150hz_75db_250ff-30n-80.wav,1.7839,di,30,n,80,130.0
TimoR,9.0,main_files/trial_di/07_di_cross_150hz_75db_250ff-30n-120.wav,1.895,di,30,n,120,140.0
TimoR,14.0,main_files/trial_di/07_di_cross_150hz_75db_250ff-20p-60.wav,1.8992,di,20,p,60,165.0
TimoR,12.0,main_files/trial_di/07_di_cross_150hz_75db_250ff-10n-40.wav,2.3952,di,10,n,40,155.0
TimoR,14.0,main_files/trial_di/07_di_cross_150hz_75db_250ff-40p-60.wav,4.4849,di,40,p,60,165.0
TimoR,11.0,main_files/trial_di/07_di_cross_150hz_75db_250ff-000-60.wav,0.0,di,0,0,0,150.0
TimoR,13.0,main_files/trial_di/07_di_cross_150hz_75db_250ff-000-40.wav,2.1281,di,0,0,0,160.0
TimoR,9.0,main_files/trial_di/07_di_cross_150hz_75db_250ff-20p-100.wav,2.0966,di,20,p,100,140.0
TimoR,11.0,main_files/trial_di/07_di_cross_150hz_75db_250ff-30n-100.wav,0.0,di,30,n,100,150.0
TimoR,7.0,main_files/trial_di/07_di_cross_150hz_75db_250ff-20n-100.wav,2.084,di,20,n,100,130.0
TimoR,10.0,main_files/trial_di/07_di_cross_150hz_75db_250ff-30n-40.wav,4.6493,di,30,n,40,145.0
TimoR,13.0,main_files/trial_di/07_di_cross_150hz_75db_250ff-10n-80.wav,2.5294,di,10,n,80,160.0
TimoR,13.0,main_files/trial_di/07_di_cross_150hz_75db_250ff-40p-80.wav,5.2821,di,40,p,80,160.0
TimoR,14.0,main_files/trial_di/07_di_cross_150hz_75db_250ff-40p-100.wav,2.226,di,40,p,100,165.0
TimoR,12.0,main_files/trial_di/07_di_cross_150hz_75db_250ff-000-100.wav,2.424,di,0,0,0,155.0
TimoR,8.0,main_files/trial_di/07_di_cross_150hz_75db_250ff-40n-80.wav,2.1293,di,40,n,80,135.0
TimoR,10.0,main_files/trial_di/07_di_cross_150hz_75db_250ff-20p-120.wav,2.1996,di,20,p,120,145.0
TimoR,12.0,main_files/trial_di/07_di_cross_150hz_75db_250ff-10p-60.wav,1.9867,di,10,p,60,155.0
TimoR,12.0,main_files/trial_di/07_di_cross_150hz_75db_250ff-40p-40.wav,2.183,di,40,p,40,155.0
TimoR,12.0,main_files/trial_di/07_di_cross_150hz_75db_250ff-30p-40.wav,9.8366,di,30,p,40,155.0
TimoR,7.0,main_files/trial_di/07_di_cross_150hz_75db_250ff-40n-40.wav,3.4444,di,40,n,40,130.0
TimoR,8.0,main_files/trial_di/07_di_cross_150hz_75db_250ff-20n-120.wav,1.7491,di,20,n,120,135.0
TimoR,9.0,main_files/trial_di/07_di_cross_150hz_75db_250ff-30p-60.wav,2.4523,di,30,p,60,140.0
TimoR,13.0,main_files/trial_di/07_di_cross_150hz_75db_250ff-000-120.wav,2.0126,di,0,0,0,160.0
TimoR,9.0,main_files/trial_di/07_di_cross_150hz_75db_250ff-10n-100.wav,1.8812,di,10,n,100,140.0
ENG002,12.0,main_files/trial_tone/tone_150hz_75db_250ff-10p-120.wav,8.7226,tone,10,p,120,155.0
ENG002,11.0,main_files/trial_tone/tone_150hz_75db_250ff-10p-40.wav,5.0143,tone,10,p,40,150.0
ENG002,11.0,main_files/trial_tone/tone_150hz_75db_250ff-20p-40.wav,8.5982,tone,20,p,40,150.0
ENG002,12.0,main_files/trial_tone/tone_150hz_75db_250ff-10p-100.wav,6.4107,tone,10,p,100,155.0
ENG002,10.0,main_files/trial_tone/tone_150hz_75db_250ff-20n-60.wav,6.4303,tone,20,n,60,145.0
ENG002,13.0,main_files/trial_tone/tone_150hz_75db_250ff-40p-120.wav,2.0014,tone,40,p,120,160.0
ENG002,11.0,main_files/trial_tone/tone_150hz_75db_250ff-10n-60.wav,4.6331,tone,10,n,60,150.0
ENG002,10.0,main_files/trial_tone/tone_150hz_75db_250ff-20n-80.wav,2.0972,tone,20,n,80,145.0
ENG002,11.0,main_files/trial_tone/tone_150hz_75db_250ff-20n-40.wav,3.8942,tone,20,n,40,150.0
ENG002,10.0,main_files/trial_tone/tone_150hz_75db_250ff-30n-60.wav,1.6963,tone,30,n,60,145.0
ENG002,13.0,main_files/trial_tone/tone_150hz_75db_250ff-30p-100.wav,6.4626,tone,30,p,100,160.0
ENG002,12.0,main_files/trial_tone/tone_150hz_75db_250ff-10p-80.wav,1.964,tone,10,p,80,155.0
ENG002,12.0,main_files/trial_tone/tone_150hz_75db_250ff-20p-80.wav,2.731,tone,20,p,80,155.0
ENG002,9.0,main_files/trial_tone/tone_150hz_75db_250ff-40n-120.wav,2.6123,tone,40,n,120,140.0
ENG002,12.0,main_files/trial_tone/tone_150hz_75db_250ff-30p-120.wav,1.7673,tone,30,p,120,155.0
ENG002,9.0,main_files/trial_tone/tone_150hz_75db_250ff-40n-60.wav,4.3453,tone,40,n,60,140.0
ENG002,10.0,main_files/trial_tone/tone_150hz_75db_250ff-10n-120.wav,1.6137,tone,10,n,120,145.0
ENG002,13.0,main_files/trial_tone/tone_150hz_75db_250ff-30p-80.wav,1.7987,tone,30,p,80,160.0
ENG002,9.0,main_files/trial_tone/tone_150hz_75db_250ff-40n-100.wav,1.681,tone,40,n,100,140.0
ENG002,11.0,main_files/trial_tone/tone_150hz_75db_250ff-000-80.wav,3.8626,tone,0,0,0,150.0
ENG002,10.0,main_files/trial_tone/tone_150hz_75db_250ff-30n-80.wav,7.3149,tone,30,n,80,145.0
ENG002,10.0,main_files/trial_tone/tone_150hz_75db_250ff-30n-120.wav,1.6005,tone,30,n,120,145.0
ENG002,13.0,main_files/trial_tone/tone_150hz_75db_250ff-20p-60.wav,5.6626,tone,20,p,60,160.0
ENG002,9.0,main_files/trial_tone/tone_150hz_75db_250ff-10n-40.wav,2.0152,tone,10,n,40,140.0
ENG002,13.0,main_files/trial_tone/tone_150hz_75db_250ff-40p-60.wav,1.9813,tone,40,p,60,160.0
ENG002,11.0,main_files/trial_tone/tone_150hz_75db_250ff-000-60.wav,0.0,tone,0,0,0,150.0
ENG002,11.0,main_files/trial_tone/tone_150hz_75db_250ff-000-40.wav,3.7487,tone,0,0,0,150.0
ENG002,13.0,main_files/trial_tone/tone_150hz_75db_250ff-20p-100.wav,1.9429,tone,20,p,100,160.0
ENG002,9.0,main_files/trial_tone/tone_150hz_75db_250ff-30n-100.wav,1.7977,tone,30,n,100,140.0
ENG002,9.0,main_files/trial_tone/tone_150hz_75db_250ff-20n-100.wav,9.014,tone,20,n,100,140.0
ENG002,11.0,main_files/trial_tone/tone_150hz_75db_250ff-30n-40.wav,4.6967,tone,30,n,40,150.0
ENG002,11.0,main_files/trial_tone/tone_150hz_75db_250ff-10n-80.wav,0.0,tone,10,n,80,150.0
ENG002,13.0,main_files/trial_tone/tone_150hz_75db_250ff-40p-80.wav,1.8268,tone,40,p,80,160.0
ENG002,14.0,main_files/trial_tone/tone_150hz_75db_250ff-40p-100.wav,1.9276,tone,40,p,100,165.0
ENG002,11.0,main_files/trial_tone/tone_150hz_75db_250ff-000-100.wav,0.0,tone,0,0,0,150.0
ENG002,9.0,main_files/trial_tone/tone_150hz_75db_250ff-40n-80.wav,3.9372,tone,40,n,80,140.0
ENG002,13.0,main_files/trial_tone/tone_150hz_75db_250ff-20p-120.wav,1.7605,tone,20,p,120,160.0
ENG002,11.0,main_files/trial_tone/tone_150hz_75db_250ff-10p-60.wav,0.0,tone,10,p,60,150.0
ENG002,12.0,main_files/trial_tone/tone_150hz_75db_250ff-40p-40.wav,2.5977,tone,40,p,40,155.0
ENG002,12.0,main_files/trial_tone/tone_150hz_75db_250ff-30p-40.wav,1.8678,tone,30,p,40,155.0
ENG002,9.0,main_files/trial_tone/tone_150hz_75db_250ff-40n-40.wav,1.9995,tone,40,n,40,140.0
ENG002,9.0,main_files/trial_tone/tone_150hz_75db_250ff-20n-120.wav,6.2809,tone,20,n,120,140.0
ENG002,13.0,main_files/trial_tone/tone_150hz_75db_250ff-30p-60.wav,2.0509,tone,30,p,60,160.0
ENG002,12.0,main_files/trial_tone/tone_150hz_75db_250ff-000-120.wav,7.8953,tone,0,0,0,155.0
ENG002,11.0,main_files/trial_tone/tone_150hz_75db_250ff-10n-100.wav,0.0,tone,10,n,100,150.0
ENG002,11.0,main_files/trial_di/07_di_cross_150hz_75db_250ff-10p-120.wav,0.0,di,10,p,120,150.0
ENG002,12.0,main_files/trial_di/07_di_cross_150hz_75db_250ff-10p-40.wav,1.8636,di,10,p,40,155.0
ENG002,12.0,main_files/trial_di/07_di_cross_150hz_75db_250ff-20p-40.wav,2.6634,di,20,p,40,155.0
ENG002,11.0,main_files/trial_di/07_di_cross_150hz_75db_250ff-10p-100.wav,0.0,di,10,p,100,150.0
ENG002,9.0,main_files/trial_di/07_di_cross_150hz_75db_250ff-20n-60.wav,3.8979,di,20,n,60,140.0
ENG002,14.0,main_files/trial_di/07_di_cross_150hz_75db_250ff-40p-120.wav,1.9147,di,40,p,120,165.0
ENG002,11.0,main_files/trial_di/07_di_cross_150hz_75db_250ff-10n-60.wav,0.0,di,10,n,60,150.0
ENG002,9.0,main_files/trial_di/07_di_cross_150hz_75db_250ff-20n-80.wav,6.9672,di,20,n,80,140.0
ENG002,11.0,main_files/trial_di/07_di_cross_150hz_75db_250ff-20n-40.wav,0.0,di,20,n,40,150.0
ENG002,9.0,main_files/trial_di/07_di_cross_150hz_75db_250ff-30n-60.wav,2.0315,di,30,n,60,140.0
ENG002,14.0,main_files/trial_di/07_di_cross_150hz_75db_250ff-30p-100.wav,1.7964,di,30,p,100,165.0
ENG002,12.0,main_files/trial_di/07_di_cross_150hz_75db_250ff-10p-80.wav,2.262,di,10,p,80,155.0
ENG002,12.0,main_files/trial_di/07_di_cross_150hz_75db_250ff-20p-80.wav,2.1952,di,20,p,80,155.0
ENG002,8.0,main_files/trial_di/07_di_cross_150hz_75db_250ff-40n-120.wav,4.1463,di,40,n,120,135.0
ENG002,14.0,main_files/trial_di/07_di_cross_150hz_75db_250ff-30p-120.wav,1.7541,di,30,p,120,165.0
ENG002,9.0,main_files/trial_di/07_di_cross_150hz_75db_250ff-40n-60.wav,1.8624,di,40,n,60,140.0
ENG002,9.0,main_files/trial_di/07_di_cross_150hz_75db_250ff-10n-120.wav,2.4641,di,10,n,120,140.0
ENG002,14.0,main_files/trial_di/07_di_cross_150hz_75db_250ff-30p-80.wav,2.1634,di,30,p,80,165.0
ENG002,9.0,main_files/trial_di/07_di_cross_150hz_75db_250ff-40n-100.wav,2.0293,di,40,n,100,140.0
ENG002,11.0,main_files/trial_di/07_di_cross_150hz_75db_250ff-000-80.wav,0.0,di,0,0,0,150.0
ENG002,10.0,main_files/trial_di/07_di_cross_150hz_75db_250ff-30n-80.wav,2.0621,di,30,n,80,145.0
ENG002,9.0,main_files/trial_di/07_di_cross_150hz_75db_250ff-30n-120.wav,1.6728,di,30,n,120,140.0
ENG002,14.0,main_files/trial_di/07_di_cross_150hz_75db_250ff-20p-60.wav,1.7961,di,20,p,60,165.0
ENG002,10.0,main_files/trial_di/07_di_cross_150hz_75db_250ff-10n-40.wav,2.9627,di,10,n,40,145.0
ENG002,15.0,main_files/trial_di/07_di_cross_150hz_75db_250ff-40p-60.wav,2.18,di,40,p,60,170.0
ENG002,11.0,main_files/trial_di/07_di_cross_150hz_75db_250ff-000-60.wav,0.0,di,0,0,0,150.0
ENG002,11.0,main_files/trial_di/07_di_cross_150hz_75db_250ff-000-40.wav,0.0,di,0,0,0,150.0
ENG002,13.0,main_files/trial_di/07_di_cross_150hz_75db_250ff-20p-100.wav,1.796,di,20,p,100,160.0
ENG002,8.0,main_files/trial_di/07_di_cross_150hz_75db_250ff-30n-100.wav,1.8821,di,30,n,100,135.0
ENG002,9.0,main_files/trial_di/07_di_cross_150hz_75db_250ff-20n-100.wav,3.0449,di,20,n,100,140.0
ENG002,10.0,main_files/trial_di/07_di_cross_150hz_75db_250ff-30n-40.wav,1.5272,di,30,n,40,145.0
ENG002,10.0,main_files/trial_di/07_di_cross_150hz_75db_250ff-10n-80.wav,2.3278,di,10,n,80,145.0
ENG002,15.0,main_files/trial_di/07_di_cross_150hz_75db_250ff-40p-80.wav,5.8282,di,40,p,80,170.0
ENG002,15.0,main_files/trial_di/07_di_cross_150hz_75db_250ff-40p-100.wav,1.8453,di,40,p,100,170.0
ENG002,11.0,main_files/trial_di/07_di_cross_150hz_75db_250ff-000-100.wav,0.0,di,0,0,0,150.0
ENG002,8.0,main_files/trial_di/07_di_cross_150hz_75db_250ff-40n-80.wav,3.0502,di,40,n,80,135.0
ENG002,14.0,main_files/trial_di/07_di_cross_150hz_75db_250ff-20p-120.wav,1.7447,di,20,p,120,165.0
ENG002,11.0,main_files/trial_di/07_di_cross_150hz_75db_250ff-10p-60.wav,0.0,di,10,p,60,150.0
ENG002,13.0,main_files/trial_di/07_di_cross_150hz_75db_250ff-40p-40.wav,1.661,di,40,p,40,160.0
ENG002,11.0,main_files/trial_di/07_di_cross_150hz_75db_250ff-30p-40.wav,0.0,di,30,p,40,150.0
ENG002,11.0,main_files/trial_di/07_di_cross_150hz_75db_250ff-40n-40.wav,0.0,di,40,n,40,150.0
ENG002,10.0,main_files/trial_di/07_di_cross_150hz_75db_250ff-20n-120.wav,1.7507,di,20,n,120,145.0
ENG002,14.0,main_files/trial_di/07_di_cross_150hz_75db_250ff-30p-60.wav,2.1859,di,30,p,60,165.0
ENG002,11.0,main_files/trial_di/07_di_cross_150hz_75db_250ff-000-120.wav,0.0,di,0,0,0,150.0
ENG002,11.0,main_files/trial_di/07_di_cross_150hz_75db_250ff-10n-100.wav,0.0,di,10,n,100,150.0
ENG002,11.0,main_files/trial_i/07_i_150hz_75db_250ff-10p-120.wav,0.0,i,10,p,120,150.0
ENG002,11.0,main_files/trial_i/07_i_150hz_75db_250ff-10p-40.wav,0.0,i,10,p,40,150.0
ENG002,11.0,main_files/trial_i/07_i_150hz_75db_250ff-20p-40.wav,0.0,i,20,p,40,150.0
ENG002,12.0,main_files/trial_i/07_i_150hz_75db_250ff-10p-100.wav,3.2181,i,10,p,100,155.0
ENG002,11.0,main_files/trial_i/07_i_150hz_75db_250ff-20n-60.wav,0.0,i,20,n,60,150.0
ENG002,13.0,main_files/trial_i/07_i_150hz_75db_250ff-40p-120.wav,1.8527,i,40,p,120,160.0
ENG002,10.0,main_files/trial_i/07_i_150hz_75db_250ff-10n-60.wav,1.9429,i,10,n,60,145.0
ENG002,10.0,main_files/trial_i/07_i_150hz_75db_250ff-20n-80.wav,3.1201,i,20,n,80,145.0
ENG002,11.0,main_files/trial_i/07_i_150hz_75db_250ff-20n-40.wav,0.0,i,20,n,40,150.0
ENG002,11.0,main_files/trial_i/07_i_150hz_75db_250ff-30n-60.wav,0.0,i,30,n,60,150.0
ENG002,14.0,main_files/trial_i/07_i_150hz_75db_250ff-30p-100.wav,1.885,i,30,p,100,165.0
ENG002,13.0,main_files/trial_i/07_i_150hz_75db_250ff-10p-80.wav,1.8509,i,10,p,80,160.0
ENG002,12.0,main_files/trial_i/07_i_150hz_75db_250ff-20p-80.wav,4.3518,i,20,p,80,155.0
ENG002,8.0,main_files/trial_i/07_i_150hz_75db_250ff-40n-120.wav,2.0132,i,40,n,120,135.0
ENG002,14.0,main_files/trial_i/07_i_150hz_75db_250ff-30p-120.wav,1.6127,i,30,p,120,165.0
ENG002,10.0,main_files/trial_i/07_i_150hz_75db_250ff-40n-60.wav,1.6475,i,40,n,60,145.0
ENG002,10.0,main_files/trial_i/07_i_150hz_75db_250ff-10n-120.wav,2.9175,i,10,n,120,145.0
ENG002,13.0,main_files/trial_i/07_i_150hz_75db_250ff-30p-80.wav,1.4927,i,30,p,80,160.0
ENG002,9.0,main_files/trial_i/07_i_150hz_75db_250ff-40n-100.wav,1.9469,i,40,n,100,140.0
ENG002,11.0,main_files/trial_i/07_i_150hz_75db_250ff-000-80.wav,6.3184,i,0,0,0,150.0
ENG002,9.0,main_files/trial_i/07_i_150hz_75db_250ff-30n-80.wav,1.8967,i,30,n,80,140.0
ENG002,9.0,main_files/trial_i/07_i_150hz_75db_250ff-30n-120.wav,1.6835,i,30,n,120,140.0
ENG002,13.0,main_files/trial_i/07_i_150hz_75db_250ff-20p-60.wav,1.7202,i,20,p,60,160.0
ENG002,11.0,main_files/trial_i/07_i_150hz_75db_250ff-10n-40.wav,0.0,i,10,n,40,150.0
ENG002,14.0,main_files/trial_i/07_i_150hz_75db_250ff-40p-60.wav,1.8476,i,40,p,60,165.0
ENG002,11.0,main_files/trial_i/07_i_150hz_75db_250ff-000-60.wav,0.0,i,0,0,0,150.0
ENG002,11.0,main_files/trial_i/07_i_150hz_75db_250ff-000-40.wav,0.0,i,0,0,0,150.0
ENG002,13.0,main_files/trial_i/07_i_150hz_75db_250ff-20p-100.wav,1.617,i,20,p,100,160.0
ENG002,8.0,main_files/trial_i/07_i_150hz_75db_250ff-30n-100.wav,3.119,i,30,n,100,135.0
ENG002,9.0,main_files/trial_i/07_i_150hz_75db_250ff-20n-100.wav,1.7188,i,20,n,100,140.0
ENG002,11.0,main_files/trial_i/07_i_150hz_75db_250ff-30n-40.wav,0.0,i,30,n,40,150.0
ENG002,10.0,main_files/trial_i/07_i_150hz_75db_250ff-10n-80.wav,3.883,i,10,n,80,145.0
ENG002,14.0,main_files/trial_i/07_i_150hz_75db_250ff-40p-80.wav,1.819,i,40,p,80,165.0
ENG002,14.0,main_files/trial_i/07_i_150hz_75db_250ff-40p-100.wav,1.3845,i,40,p,100,165.0
ENG002,11.0,main_files/trial_i/07_i_150hz_75db_250ff-000-100.wav,0.0,i,0,0,0,150.0
ENG002,10.0,main_files/trial_i/07_i_150hz_75db_250ff-40n-80.wav,1.4525,i,40,n,80,145.0
ENG002,13.0,main_files/trial_i/07_i_150hz_75db_250ff-20p-120.wav,1.7844,i,20,p,120,160.0
ENG002,11.0,main_files/trial_i/07_i_150hz_75db_250ff-10p-60.wav,0.0,i,10,p,60,150.0
ENG002,12.0,main_files/trial_i/07_i_150hz_75db_250ff-40p-40.wav,1.7836,i,40,p,40,155.0
ENG002,11.0,main_files/trial_i/07_i_150hz_75db_250ff-30p-40.wav,0.0,i,30,p,40,150.0
ENG002,10.0,main_files/trial_i/07_i_150hz_75db_250ff-40n-40.wav,1.6213,i,40,n,40,145.0
ENG002,10.0,main_files/trial_i/07_i_150hz_75db_250ff-20n-120.wav,1.8782,i,20,n,120,145.0
ENG002,12.0,main_files/trial_i/07_i_150hz_75db_250ff-30p-60.wav,1.9514,i,30,p,60,155.0
ENG002,12.0,main_files/trial_i/07_i_150hz_75db_250ff-000-120.wav,2.4116,i,0,0,0,155.0
ENG002,11.0,main_files/trial_i/07_i_150hz_75db_250ff-10n-100.wav,0.0,i,10,n,100,150.0
ENG001,11.0,main_files/trial_di/07_di_cross_150hz_75db_250ff-10p-120.wav,0.0,di,10,p,120,150.0
ENG001,11.0,main_files/trial_di/07_di_cross_150hz_75db_250ff-10p-40.wav,0.0,di,10,p,40,150.0
ENG001,12.0,main_files/trial_di/07_di_cross_150hz_75db_250ff-20p-40.wav,10.0064,di,20,p,40,155.0
ENG001,11.0,main_files/trial_di/07_di_cross_150hz_75db_250ff-10p-100.wav,0.0,di,10,p,100,150.0
ENG001,7.0,main_files/trial_di/07_di_cross_150hz_75db_250ff-20n-60.wav,11.7537,di,20,n,60,130.0
ENG001,16.0,main_files/trial_di/07_di_cross_150hz_75db_250ff-40p-120.wav,15.3643,di,40,p,120,175.0
ENG001,8.0,main_files/trial_di/07_di_cross_150hz_75db_250ff-10n-60.wav,9.2754,di,10,n,60,135.0
ENG001,7.0,main_files/trial_di/07_di_cross_150hz_75db_250ff-20n-80.wav,4.1221,di,20,n,80,130.0
ENG001,8.0,main_files/trial_di/07_di_cross_150hz_75db_250ff-20n-40.wav,14.4966,di,20,n,40,135.0
ENG001,7.0,main_files/trial_di/07_di_cross_150hz_75db_250ff-30n-60.wav,8.6951,di,30,n,60,130.0
ENG001,16.0,main_files/trial_di/07_di_cross_150hz_75db_250ff-30p-100.wav,10.0117,di,30,p,100,175.0
ENG001,11.0,main_files/trial_di/07_di_cross_150hz_75db_250ff-10p-80.wav,0.0,di,10,p,80,150.0
ENG001,14.0,main_files/trial_di/07_di_cross_150hz_75db_250ff-20p-80.wav,4.3128,di,20,p,80,165.0
ENG001,7.0,main_files/trial_di/07_di_cross_150hz_75db_250ff-40n-120.wav,2.0083,di,40,n,120,130.0
ENG001,15.0,main_files/trial_di/07_di_cross_150hz_75db_250ff-30p-120.wav,2.6138,di,30,p,120,170.0
ENG001,7.0,main_files/trial_di/07_di_cross_150hz_75db_250ff-40n-60.wav,9.5237,di,40,n,60,130.0
ENG001,8.0,main_files/trial_di/07_di_cross_150hz_75db_250ff-10n-120.wav,5.8221,di,10,n,120,135.0
ENG001,16.0,main_files/trial_di/07_di_cross_150hz_75db_250ff-30p-80.wav,1.6354,di,30,p,80,175.0
ENG001,6.0,main_files/trial_di/07_di_cross_150hz_75db_250ff-40n-100.wav,2.3616,di,40,n,100,125.0
ENG001,11.0,main_files/trial_di/07_di_cross_150hz_75db_250ff-000-80.wav,0.0,di,0,0,0,150.0
ENG001,7.0,main_files/trial_di/07_di_cross_150hz_75db_250ff-30n-80.wav,3.8119,di,30,n,80,130.0
ENG001,8.0,main_files/trial_di/07_di_cross_150hz_75db_250ff-30n-120.wav,2.163,di,30,n,120,135.0
ENG001,14.0,main_files/trial_di/07_di_cross_150hz_75db_250ff-20p-60.wav,1.8454,di,20,p,60,165.0
ENG001,8.0,main_files/trial_di/07_di_cross_150hz_75db_250ff-10n-40.wav,4.1885,di,10,n,40,135.0
ENG001,16.0,main_files/trial_di/07_di_cross_150hz_75db_250ff-40p-60.wav,4.2112,di,40,p,60,175.0
ENG001,11.0,main_files/trial_di/07_di_cross_150hz_75db_250ff-000-60.wav,0.0,di,0,0,0,150.0
ENG001,11.0,main_files/trial_di/07_di_cross_150hz_75db_250ff-000-40.wav,0.0,di,0,0,0,150.0
ENG001,14.0,main_files/trial_di/07_di_cross_150hz_75db_250ff-20p-100.wav,1.8801,di,20,p,100,165.0
ENG001,8.0,main_files/trial_di/07_di_cross_150hz_75db_250ff-30n-100.wav,1.7468,di,30,n,100,135.0
ENG001,8.0,main_files/trial_di/07_di_cross_150hz_75db_250ff-20n-100.wav,3.4289,di,20,n,100,135.0
ENG001,8.0,main_files/trial_di/07_di_cross_150hz_75db_250ff-30n-40.wav,2.7856,di,30,n,40,135.0
ENG001,8.0,main_files/trial_di/07_di_cross_150hz_75db_250ff-10n-80.wav,3.5943,di,10,n,80,135.0
ENG001,17.0,main_files/trial_di/07_di_cross_150hz_75db_250ff-40p-80.wav,12.5028,di,40,p,80,180.0
ENG001,17.0,main_files/trial_di/07_di_cross_150hz_75db_250ff-40p-100.wav,5.2184,di,40,p,100,180.0
ENG001,11.0,main_files/trial_di/07_di_cross_150hz_75db_250ff-000-100.wav,0.0,di,0,0,0,150.0
ENG001,6.0,main_files/trial_di/07_di_cross_150hz_75db_250ff-40n-80.wav,2.3629,di,40,n,80,125.0
ENG001,15.0,main_files/trial_di/07_di_cross_150hz_75db_250ff-20p-120.wav,2.6936,di,20,p,120,170.0
ENG001,11.0,main_files/trial_di/07_di_cross_150hz_75db_250ff-10p-60.wav,0.0,di,10,p,60,150.0
ENG001,16.0,main_files/trial_di/07_di_cross_150hz_75db_250ff-40p-40.wav,2.1868,di,40,p,40,175.0
ENG001,16.0,main_files/trial_di/07_di_cross_150hz_75db_250ff-30p-40.wav,4.0434,di,30,p,40,175.0
ENG001,7.0,main_files/trial_di/07_di_cross_150hz_75db_250ff-40n-40.wav,1.7787,di,40,n,40,130.0
ENG001,6.0,main_files/trial_di/07_di_cross_150hz_75db_250ff-20n-120.wav,7.8624,di,20,n,120,125.0
ENG001,16.0,main_files/trial_di/07_di_cross_150hz_75db_250ff-30p-60.wav,2.0348,di,30,p,60,175.0
ENG001,11.0,main_files/trial_di/07_di_cross_150hz_75db_250ff-000-120.wav,0.0,di,0,0,0,150.0
ENG001,9.0,main_files/trial_di/07_di_cross_150hz_75db_250ff-10n-100.wav,1.9475,di,10,n,100,140.0
ENG001,11.0,main_files/trial_i/07_i_150hz_75db_250ff-10p-120.wav,0.0,i,10,p,120,150.0
ENG001,11.0,main_files/trial_i/07_i_150hz_75db_250ff-10p-40.wav,0.0,i,10,p,40,150.0
ENG001,11.0,main_files/trial_i/07_i_150hz_75db_250ff-20p-40.wav,0.0,i,20,p,40,150.0
ENG001,13.0,main_files/trial_i/07_i_150hz_75db_250ff-10p-100.wav,2.5193,i,10,p,100,160.0
ENG001,8.0,main_files/trial_i/07_i_150hz_75db_250ff-20n-60.wav,3.5065,i,20,n,60,135.0
ENG001,14.0,main_files/trial_i/07_i_150hz_75db_250ff-40p-120.wav,5.4469,i,40,p,120,165.0
ENG001,7.0,main_files/trial_i/07_i_150hz_75db_250ff-10n-60.wav,5.4405,i,10,n,60,130.0
ENG001,7.0,main_files/trial_i/07_i_150hz_75db_250ff-20n-80.wav,5.8539,i,20,n,80,130.0
ENG001,10.0,main_files/trial_i/07_i_150hz_75db_250ff-20n-40.wav,15.1127,i,20,n,40,145.0
ENG001,11.0,main_files/trial_i/07_i_150hz_75db_250ff-30n-60.wav,0.0,i,30,n,60,150.0
ENG001,16.0,main_files/trial_i/07_i_150hz_75db_250ff-30p-100.wav,9.5721,i,30,p,100,175.0
ENG001,11.0,main_files/trial_i/07_i_150hz_75db_250ff-10p-80.wav,0.0,i,10,p,80,150.0
ENG001,15.0,main_files/trial_i/07_i_150hz_75db_250ff-20p-80.wav,2.7801,i,20,p,80,170.0
ENG001,6.0,main_files/trial_i/07_i_150hz_75db_250ff-40n-120.wav,4.0044,i,40,n,120,125.0
ENG001,16.0,main_files/trial_i/07_i_150hz_75db_250ff-30p-120.wav,8.9291,i,30,p,120,175.0
ENG001,6.0,main_files/trial_i/07_i_150hz_75db_250ff-40n-60.wav,9.4886,i,40,n,60,125.0
ENG001,11.0,main_files/trial_i/07_i_150hz_75db_250ff-10n-120.wav,0.0,i,10,n,120,150.0
ENG001,16.0,main_files/trial_i/07_i_150hz_75db_250ff-30p-80.wav,3.7916,i,30,p,80,175.0
ENG001,7.0,main_files/trial_i/07_i_150hz_75db_250ff-40n-100.wav,2.5116,i,40,n,100,130.0
ENG001,11.0,main_files/trial_i/07_i_150hz_75db_250ff-000-80.wav,0.0,i,0,0,0,150.0
ENG001,8.0,main_files/trial_i/07_i_150hz_75db_250ff-30n-80.wav,2.2274,i,30,n,80,135.0
ENG001,9.0,main_files/trial_i/07_i_150hz_75db_250ff-30n-120.wav,2.5909,i,30,n,120,140.0
ENG001,13.0,main_files/trial_i/07_i_150hz_75db_250ff-20p-60.wav,11.7542,i,20,p,60,160.0
ENG001,11.0,main_files/trial_i/07_i_150hz_75db_250ff-10n-40.wav,0.0,i,10,n,40,150.0
ENG001,15.0,main_files/trial_i/07_i_150hz_75db_250ff-40p-60.wav,3.522,i,40,p,60,170.0
ENG001,11.0,main_files/trial_i/07_i_150hz_75db_250ff-000-60.wav,0.0,i,0,0,0,150.0
ENG001,11.0,main_files/trial_i/07_i_150hz_75db_250ff-000-40.wav,0.0,i,0,0,0,150.0
ENG001,15.0,main_files/trial_i/07_i_150hz_75db_250ff-20p-100.wav,2.0084,i,20,p,100,170.0
ENG001,7.0,main_files/trial_i/07_i_150hz_75db_250ff-30n-100.wav,2.0702,i,30,n,100,130.0
ENG001,8.0,main_files/trial_i/07_i_150hz_75db_250ff-20n-100.wav,29.7488,i,20,n,100,135.0
ENG001,9.0,main_files/trial_i/07_i_150hz_75db_250ff-30n-40.wav,2.4111,i,30,n,40,140.0
ENG001,11.0,main_files/trial_i/07_i_150hz_75db_250ff-10n-80.wav,0.0,i,10,n,80,150.0
ENG001,14.0,main_files/trial_i/07_i_150hz_75db_250ff-40p-80.wav,2.3814,i,40,p,80,165.0
ENG001,15.0,main_files/trial_i/07_i_150hz_75db_250ff-40p-100.wav,9.212,i,40,p,100,170.0
ENG001,11.0,main_files/trial_i/07_i_150hz_75db_250ff-000-100.wav,0.0,i,0,0,0,150.0
ENG001,8.0,main_files/trial_i/07_i_150hz_75db_250ff-40n-80.wav,5.327,i,40,n,80,135.0
ENG001,15.0,main_files/trial_i/07_i_150hz_75db_250ff-20p-120.wav,32.8815,i,20,p,120,170.0
ENG001,11.0,main_files/trial_i/07_i_150hz_75db_250ff-10p-60.wav,0.0,i,10,p,60,150.0
ENG001,13.0,main_files/trial_i/07_i_150hz_75db_250ff-40p-40.wav,2.1602,i,40,p,40,160.0
ENG001,11.0,main_files/trial_i/07_i_150hz_75db_250ff-30p-40.wav,0.0,i,30,p,40,150.0
ENG001,8.0,main_files/trial_i/07_i_150hz_75db_250ff-40n-40.wav,4.6537,i,40,n,40,135.0
ENG001,9.0,main_files/trial_i/07_i_150hz_75db_250ff-20n-120.wav,2.6869,i,20,n,120,140.0
ENG001,13.0,main_files/trial_i/07_i_150hz_75db_250ff-30p-60.wav,2.8929,i,30,p,60,160.0
ENG001,11.0,main_files/trial_i/07_i_150hz_75db_250ff-000-120.wav,0.0,i,0,0,0,150.0
ENG001,8.0,main_files/trial_i/07_i_150hz_75db_250ff-10n-100.wav,1.8696,i,10,n,100,135.0
ENG001,11.0,main_files/trial_tone/tone_150hz_75db_250ff-10p-120.wav,0.0,tone,10,p,120,150.0
ENG001,11.0,main_files/trial_tone/tone_150hz_75db_250ff-10p-40.wav,0.0,tone,10,p,40,150.0
ENG001,11.0,main_files/trial_tone/tone_150hz_75db_250ff-20p-40.wav,0.0,tone,20,p,40,150.0
ENG001,11.0,main_files/trial_tone/tone_150hz_75db_250ff-10p-100.wav,0.0,tone,10,p,100,150.0
ENG001,9.0,main_files/trial_tone/tone_150hz_75db_250ff-20n-60.wav,2.0872,tone,20,n,60,140.0
ENG001,15.0,main_files/trial_tone/tone_150hz_75db_250ff-40p-120.wav,6.0372,tone,40,p,120,170.0
ENG001,11.0,main_files/trial_tone/tone_150hz_75db_250ff-10n-60.wav,0.0,tone,10,n,60,150.0
ENG001,9.0,main_files/trial_tone/tone_150hz_75db_250ff-20n-80.wav,1.9025,tone,20,n,80,140.0
ENG001,11.0,main_files/trial_tone/tone_150hz_75db_250ff-20n-40.wav,0.0,tone,20,n,40,150.0
ENG001,10.0,main_files/trial_tone/tone_150hz_75db_250ff-30n-60.wav,2.3744,tone,30,n,60,145.0
ENG001,14.0,main_files/trial_tone/tone_150hz_75db_250ff-30p-100.wav,1.9526,tone,30,p,100,165.0
ENG001,11.0,main_files/trial_tone/tone_150hz_75db_250ff-10p-80.wav,0.0,tone,10,p,80,150.0
ENG001,11.0,main_files/trial_tone/tone_150hz_75db_250ff-20p-80.wav,0.0,tone,20,p,80,150.0
ENG001,9.0,main_files/trial_tone/tone_150hz_75db_250ff-40n-120.wav,1.8647,tone,40,n,120,140.0
ENG001,15.0,main_files/trial_tone/tone_150hz_75db_250ff-30p-120.wav,2.3242,tone,30,p,120,170.0
ENG001,9.0,main_files/trial_tone/tone_150hz_75db_250ff-40n-60.wav,6.2699,tone,40,n,60,140.0
ENG001,11.0,main_files/trial_tone/tone_150hz_75db_250ff-10n-120.wav,0.0,tone,10,n,120,150.0
ENG001,15.0,main_files/trial_tone/tone_150hz_75db_250ff-30p-80.wav,18.5308,tone,30,p,80,170.0
ENG001,8.0,main_files/trial_tone/tone_150hz_75db_250ff-40n-100.wav,1.6203,tone,40,n,100,135.0
ENG001,11.0,main_files/trial_tone/tone_150hz_75db_250ff-000-80.wav,0.0,tone,0,0,0,150.0
ENG001,9.0,main_files/trial_tone/tone_150hz_75db_250ff-30n-80.wav,1.6327,tone,30,n,80,140.0
ENG001,7.0,main_files/trial_tone/tone_150hz_75db_250ff-30n-120.wav,2.1654,tone,30,n,120,130.0
ENG001,11.0,main_files/trial_tone/tone_150hz_75db_250ff-20p-60.wav,0.0,tone,20,p,60,150.0
ENG001,10.0,main_files/trial_tone/tone_150hz_75db_250ff-10n-40.wav,1.5243,tone,10,n,40,145.0
ENG001,13.0,main_files/trial_tone/tone_150hz_75db_250ff-40p-60.wav,1.8301,tone,40,p,60,160.0
ENG001,11.0,main_files/trial_tone/tone_150hz_75db_250ff-000-60.wav,0.0,tone,0,0,0,150.0
ENG001,11.0,main_files/trial_tone/tone_150hz_75db_250ff-000-40.wav,0.0,tone,0,0,0,150.0
ENG001,14.0,main_files/trial_tone/tone_150hz_75db_250ff-20p-100.wav,1.5943,tone,20,p,100,165.0
ENG001,8.0,main_files/trial_tone/tone_150hz_75db_250ff-30n-100.wav,1.6373,tone,30,n,100,135.0
ENG001,7.0,main_files/trial_tone/tone_150hz_75db_250ff-20n-100.wav,2.9864,tone,20,n,100,130.0
ENG001,9.0,main_files/trial_tone/tone_150hz_75db_250ff-30n-40.wav,1.8294,tone,30,n,40,140.0
ENG001,11.0,main_files/trial_tone/tone_150hz_75db_250ff-10n-80.wav,0.0,tone,10,n,80,150.0
ENG001,15.0,main_files/trial_tone/tone_150hz_75db_250ff-40p-80.wav,1.3872,tone,40,p,80,170.0
ENG001,16.0,main_files/trial_tone/tone_150hz_75db_250ff-40p-100.wav,2.9336,tone,40,p,100,175.0
ENG001,11.0,main_files/trial_tone/tone_150hz_75db_250ff-000-100.wav,0.0,tone,0,0,0,150.0
ENG001,8.0,main_files/trial_tone/tone_150hz_75db_250ff-40n-80.wav,1.8996,tone,40,n,80,135.0
ENG001,16.0,main_files/trial_tone/tone_150hz_75db_250ff-20p-120.wav,6.395,tone,20,p,120,175.0
ENG001,11.0,main_files/trial_tone/tone_150hz_75db_250ff-10p-60.wav,0.0,tone,10,p,60,150.0
ENG001,14.0,main_files/trial_tone/tone_150hz_75db_250ff-40p-40.wav,1.963,tone,40,p,40,165.0
ENG001,11.0,main_files/trial_tone/tone_150hz_75db_250ff-30p-40.wav,0.0,tone,30,p,40,150.0
ENG001,9.0,main_files/trial_tone/tone_150hz_75db_250ff-40n-40.wav,1.616,tone,40,n,40,140.0
ENG001,7.0,main_files/trial_tone/tone_150hz_75db_250ff-20n-120.wav,1.489,tone,20,n,120,130.0
ENG001,16.0,main_files/trial_tone/tone_150hz_75db_250ff-30p-60.wav,5.3854,tone,30,p,60,175.0
ENG001,11.0,main_files/trial_tone/tone_150hz_75db_250ff-000-120.wav,0.0,tone,0,0,0,150.0
ENG001,9.0,main_files/trial_tone/tone_150hz_75db_250ff-10n-100.wav,1.5785,tone,10,n,100,140.0
CHN001,12.0,main_files/trial_tone/tone_150hz_75db_250ff-10p-120.wav,7.8634,tone,10,p,120,155.0
CHN001,10.0,main_files/trial_tone/tone_150hz_75db_250ff-10p-40.wav,2.3824,tone,10,p,40,145.0
CHN001,13.0,main_files/trial_tone/tone_150hz_75db_250ff-20p-40.wav,5.289,tone,20,p,40,160.0
CHN001,15.0,main_files/trial_tone/tone_150hz_75db_250ff-10p-100.wav,2.0798,tone,10,p,100,170.0
CHN001,8.0,main_files/trial_tone/tone_150hz_75db_250ff-20n-60.wav,1.9306,tone,20,n,60,135.0
CHN001,14.0,main_files/trial_tone/tone_150hz_75db_250ff-40p-120.wav,7.4363,tone,40,p,120,165.0
CHN001,9.0,main_files/trial_tone/tone_150hz_75db_250ff-10n-60.wav,1.8639,tone,10,n,60,140.0
CHN001,8.0,main_files/trial_tone/tone_150hz_75db_250ff-20n-80.wav,1.9806,tone,20,n,80,135.0
CHN001,10.0,main_files/trial_tone/tone_150hz_75db_250ff-20n-40.wav,2.1643,tone,20,n,40,145.0
CHN001,7.0,main_files/trial_tone/tone_150hz_75db_250ff-30n-60.wav,2.0882,tone,30,n,60,130.0
CHN001,14.0,main_files/trial_tone/tone_150hz_75db_250ff-30p-100.wav,5.5965,tone,30,p,100,165.0
CHN001,11.0,main_files/trial_tone/tone_150hz_75db_250ff-10p-80.wav,0.0,tone,10,p,80,150.0
CHN001,13.0,main_files/trial_tone/tone_150hz_75db_250ff-20p-80.wav,3.8475,tone,20,p,80,160.0
CHN001,7.0,main_files/trial_tone/tone_150hz_75db_250ff-40n-120.wav,1.9863,tone,40,n,120,130.0
CHN001,15.0,main_files/trial_tone/tone_150hz_75db_250ff-30p-120.wav,1.9131,tone,30,p,120,170.0
CHN001,9.0,main_files/trial_tone/tone_150hz_75db_250ff-40n-60.wav,1.8865,tone,40,n,60,140.0
CHN001,10.0,main_files/trial_tone/tone_150hz_75db_250ff-10n-120.wav,2.4481,tone,10,n,120,145.0
CHN001,13.0,main_files/trial_tone/tone_150hz_75db_250ff-30p-80.wav,2.5143,tone,30,p,80,160.0
CHN001,9.0,main_files/trial_tone/tone_150hz_75db_250ff-40n-100.wav,1.7526,tone,40,n,100,140.0
CHN001,11.0,main_files/trial_tone/tone_150hz_75db_250ff-000-80.wav,0.0,tone,0,0,0,150.0
CHN001,9.0,main_files/trial_tone/tone_150hz_75db_250ff-30n-80.wav,1.8135,tone,30,n,80,140.0
CHN001,9.0,main_files/trial_tone/tone_150hz_75db_250ff-30n-120.wav,1.7692,tone,30,n,120,140.0
CHN001,13.0,main_files/trial_tone/tone_150hz_75db_250ff-20p-60.wav,2.2967,tone,20,p,60,160.0
CHN001,11.0,main_files/trial_tone/tone_150hz_75db_250ff-10n-40.wav,0.0,tone,10,n,40,150.0
CHN001,14.0,main_files/trial_tone/tone_150hz_75db_250ff-40p-60.wav,2.0712,tone,40,p,60,165.0
CHN001,8.0,main_files/trial_tone/tone_150hz_75db_250ff-000-60.wav,1.9976,tone,0,0,0,135.0
CHN001,11.0,main_files/trial_tone/tone_150hz_75db_250ff-000-40.wav,0.0,tone,0,0,0,150.0
CHN001,12.0,main_files/trial_tone/tone_150hz_75db_250ff-20p-100.wav,1.7971,tone,20,p,100,155.0
CHN001,8.0,main_files/trial_tone/tone_150hz_75db_250ff-30n-100.wav,1.8374,tone,30,n,100,135.0
CHN001,8.0,main_files/trial_tone/tone_150hz_75db_250ff-20n-100.wav,2.0795,tone,20,n,100,135.0
CHN001,8.0,main_files/trial_tone/tone_150hz_75db_250ff-30n-40.wav,2.1028,tone,30,n,40,135.0
CHN001,12.0,main_files/trial_tone/tone_150hz_75db_250ff-10n-80.wav,2.0196,tone,10,n,80,155.0
CHN001,16.0,main_files/trial_tone/tone_150hz_75db_250ff-40p-80.wav,1.8983,tone,40,p,80,175.0
CHN001,14.0,main_files/trial_tone/tone_150hz_75db_250ff-40p-100.wav,1.8698,tone,40,p,100,165.0
CHN001,7.0,main_files/trial_tone/tone_150hz_75db_250ff-000-100.wav,1.904,tone,0,0,0,130.0
CHN001,7.0,main_files/trial_tone/tone_150hz_75db_250ff-40n-80.wav,1.7548,tone,40,n,80,130.0
CHN001,13.0,main_files/trial_tone/tone_150hz_75db_250ff-20p-120.wav,3.5952,tone,20,p,120,160.0
CHN001,9.0,main_files/trial_tone/tone_150hz_75db_250ff-10p-60.wav,2.2796,tone,10,p,60,140.0
CHN001,14.0,main_files/trial_tone/tone_150hz_75db_250ff-40p-40.wav,2.2631,tone,40,p,40,165.0
CHN001,14.0,main_files/trial_tone/tone_150hz_75db_250ff-30p-40.wav,2.163,tone,30,p,40,165.0
CHN001,8.0,main_files/trial_tone/tone_150hz_75db_250ff-40n-40.wav,2.0911,tone,40,n,40,135.0
CHN001,9.0,main_files/trial_tone/tone_150hz_75db_250ff-20n-120.wav,2.2655,tone,20,n,120,140.0
CHN001,14.0,main_files/trial_tone/tone_150hz_75db_250ff-30p-60.wav,1.6643,tone,30,p,60,165.0
CHN001,8.0,main_files/trial_tone/tone_150hz_75db_250ff-000-120.wav,1.7661,tone,0,0,0,135.0
CHN001,7.0,main_files/trial_tone/tone_150hz_75db_250ff-10n-100.wav,1.7139,tone,10,n,100,130.0
CHN001,13.0,main_files/trial_i/07_i_150hz_75db_250ff-10p-120.wav,3.5022,i,10,p,120,160.0
CHN001,13.0,main_files/trial_i/07_i_150hz_75db_250ff-10p-40.wav,11.0633,i,10,p,40,160.0
CHN001,15.0,main_files/trial_i/07_i_150hz_75db_250ff-20p-40.wav,5.2198,i,20,p,40,170.0
CHN001,15.0,main_files/trial_i/07_i_150hz_75db_250ff-10p-100.wav,1.7471,i,10,p,100,170.0
CHN001,8.0,main_files/trial_i/07_i_150hz_75db_250ff-20n-60.wav,1.965,i,20,n,60,135.0
CHN001,17.0,main_files/trial_i/07_i_150hz_75db_250ff-40p-120.wav,2.3297,i,40,p,120,180.0
CHN001,6.0,main_files/trial_i/07_i_150hz_75db_250ff-10n-60.wav,1.8999,i,10,n,60,125.0
CHN001,6.0,main_files/trial_i/07_i_150hz_75db_250ff-20n-80.wav,1.7326,i,20,n,80,125.0
CHN001,8.0,main_files/trial_i/07_i_150hz_75db_250ff-20n-40.wav,7.8652,i,20,n,40,135.0
CHN001,7.0,main_files/trial_i/07_i_150hz_75db_250ff-30n-60.wav,4.5884,i,30,n,60,130.0
CHN001,15.0,main_files/trial_i/07_i_150hz_75db_250ff-30p-100.wav,4.7136,i,30,p,100,170.0
CHN001,15.0,main_files/trial_i/07_i_150hz_75db_250ff-10p-80.wav,3.064,i,10,p,80,170.0
CHN001,13.0,main_files/trial_i/07_i_150hz_75db_250ff-20p-80.wav,1.7316,i,20,p,80,160.0
CHN001,7.0,main_files/trial_i/07_i_150hz_75db_250ff-40n-120.wav,1.7983,i,40,n,120,130.0
CHN001,16.0,main_files/trial_i/07_i_150hz_75db_250ff-30p-120.wav,1.9028,i,30,p,120,175.0
CHN001,7.0,main_files/trial_i/07_i_150hz_75db_250ff-40n-60.wav,1.5305,i,40,n,60,130.0
CHN001,8.0,main_files/trial_i/07_i_150hz_75db_250ff-10n-120.wav,1.6312,i,10,n,120,135.0
CHN001,17.0,main_files/trial_i/07_i_150hz_75db_250ff-30p-80.wav,3.6142,i,30,p,80,180.0
CHN001,5.0,main_files/trial_i/07_i_150hz_75db_250ff-40n-100.wav,1.9815,i,40,n,100,120.0
CHN001,11.0,main_files/trial_i/07_i_150hz_75db_250ff-000-80.wav,0.0,i,0,0,0,150.0
CHN001,9.0,main_files/trial_i/07_i_150hz_75db_250ff-30n-80.wav,1.3474,i,30,n,80,140.0
CHN001,8.0,main_files/trial_i/07_i_150hz_75db_250ff-30n-120.wav,5.8464,i,30,n,120,135.0
CHN001,12.0,main_files/trial_i/07_i_150hz_75db_250ff-20p-60.wav,2.2474,i,20,p,60,155.0
CHN001,8.0,main_files/trial_i/07_i_150hz_75db_250ff-10n-40.wav,1.7463,i,10,n,40,135.0
CHN001,15.0,main_files/trial_i/07_i_150hz_75db_250ff-40p-60.wav,1.5475,i,40,p,60,170.0
CHN001,9.0,main_files/trial_i/07_i_150hz_75db_250ff-000-60.wav,2.8632,i,0,0,0,140.0
CHN001,11.0,main_files/trial_i/07_i_150hz_75db_250ff-000-40.wav,0.0,i,0,0,0,150.0
CHN001,14.0,main_files/trial_i/07_i_150hz_75db_250ff-20p-100.wav,4.9804,i,20,p,100,165.0
CHN001,6.0,main_files/trial_i/07_i_150hz_75db_250ff-30n-100.wav,1.8653,i,30,n,100,125.0
CHN001,7.0,main_files/trial_i/07_i_150hz_75db_250ff-20n-100.wav,1.5359,i,20,n,100,130.0
CHN001,9.0,main_files/trial_i/07_i_150hz_75db_250ff-30n-40.wav,1.7859,i,30,n,40,140.0
CHN001,10.0,main_files/trial_i/07_i_150hz_75db_250ff-10n-80.wav,1.6527,i,10,n,80,145.0
CHN001,17.0,main_files/trial_i/07_i_150hz_75db_250ff-40p-80.wav,4.4632,i,40,p,80,180.0
CHN001,16.0,main_files/trial_i/07_i_150hz_75db_250ff-40p-100.wav,2.7308,i,40,p,100,175.0
CHN001,7.0,main_files/trial_i/07_i_150hz_75db_250ff-000-100.wav,2.0695,i,0,0,0,130.0
CHN001,8.0,main_files/trial_i/07_i_150hz_75db_250ff-40n-80.wav,2.0813,i,40,n,80,135.0
CHN001,16.0,main_files/trial_i/07_i_150hz_75db_250ff-20p-120.wav,1.8642,i,20,p,120,175.0
CHN001,15.0,main_files/trial_i/07_i_150hz_75db_250ff-10p-60.wav,1.9136,i,10,p,60,170.0
CHN001,16.0,main_files/trial_i/07_i_150hz_75db_250ff-40p-40.wav,2.3815,i,40,p,40,175.0
CHN001,15.0,main_files/trial_i/07_i_150hz_75db_250ff-30p-40.wav,2.0531,i,30,p,40,170.0
CHN001,8.0,main_files/trial_i/07_i_150hz_75db_250ff-40n-40.wav,6.0155,i,40,n,40,135.0
CHN001,8.0,main_files/trial_i/07_i_150hz_75db_250ff-20n-120.wav,2.4033,i,20,n,120,135.0
CHN001,15.0,main_files/trial_i/07_i_150hz_75db_250ff-30p-60.wav,10.6634,i,30,p,60,170.0
CHN001,11.0,main_files/trial_i/07_i_150hz_75db_250ff-000-120.wav,0.0,i,0,0,0,150.0
CHN001,9.0,main_files/trial_i/07_i_150hz_75db_250ff-10n-100.wav,1.6464,i,10,n,100,140.0
CHN001,13.0,main_files/trial_di/07_di_cross_150hz_75db_250ff-10p-120.wav,3.7791,di,10,p,120,160.0
CHN001,12.0,main_files/trial_di/07_di_cross_150hz_75db_250ff-10p-40.wav,4.2475,di,10,p,40,155.0
CHN001,13.0,main_files/trial_di/07_di_cross_150hz_75db_250ff-20p-40.wav,2.2803,di,20,p,40,160.0
CHN001,14.0,main_files/trial_di/07_di_cross_150hz_75db_250ff-10p-100.wav,2.1963,di,10,p,100,165.0
CHN001,8.0,main_files/trial_di/07_di_cross_150hz_75db_250ff-20n-60.wav,1.9963,di,20,n,60,135.0
CHN001,15.0,main_files/trial_di/07_di_cross_150hz_75db_250ff-40p-120.wav,2.1194,di,40,p,120,170.0
CHN001,8.0,main_files/trial_di/07_di_cross_150hz_75db_250ff-10n-60.wav,3.8972,di,10,n,60,135.0
CHN001,7.0,main_files/trial_di/07_di_cross_150hz_75db_250ff-20n-80.wav,3.9807,di,20,n,80,130.0
CHN001,7.0,main_files/trial_di/07_di_cross_150hz_75db_250ff-20n-40.wav,4.264,di,20,n,40,130.0
CHN001,8.0,main_files/trial_di/07_di_cross_150hz_75db_250ff-30n-60.wav,2.1976,di,30,n,60,135.0
CHN001,17.0,main_files/trial_di/07_di_cross_150hz_75db_250ff-30p-100.wav,1.6863,di,30,p,100,180.0
CHN001,16.0,main_files/trial_di/07_di_cross_150hz_75db_250ff-10p-80.wav,2.2812,di,10,p,80,175.0
CHN001,16.0,main_files/trial_di/07_di_cross_150hz_75db_250ff-20p-80.wav,2.0636,di,20,p,80,175.0
CHN001,5.0,main_files/trial_di/07_di_cross_150hz_75db_250ff-40n-120.wav,3.2144,di,40,n,120,120.0
CHN001,17.0,main_files/trial_di/07_di_cross_150hz_75db_250ff-30p-120.wav,2.0194,di,30,p,120,180.0
CHN001,5.0,main_files/trial_di/07_di_cross_150hz_75db_250ff-40n-60.wav,3.4645,di,40,n,60,120.0
CHN001,8.0,main_files/trial_di/07_di_cross_150hz_75db_250ff-10n-120.wav,1.7861,di,10,n,120,135.0
CHN001,17.0,main_files/trial_di/07_di_cross_150hz_75db_250ff-30p-80.wav,4.1131,di,30,p,80,180.0
CHN001,7.0,main_files/trial_di/07_di_cross_150hz_75db_250ff-40n-100.wav,3.9478,di,40,n,100,130.0
CHN001,11.0,main_files/trial_di/07_di_cross_150hz_75db_250ff-000-80.wav,0.0,di,0,0,0,150.0
CHN001,7.0,main_files/trial_di/07_di_cross_150hz_75db_250ff-30n-80.wav,1.6478,di,30,n,80,130.0
CHN001,7.0,main_files/trial_di/07_di_cross_150hz_75db_250ff-30n-120.wav,2.0027,di,30,n,120,130.0
CHN001,12.0,main_files/trial_di/07_di_cross_150hz_75db_250ff-20p-60.wav,1.6809,di,20,p,60,155.0
CHN001,10.0,main_files/trial_di/07_di_cross_150hz_75db_250ff-10n-40.wav,1.6194,di,10,n,40,145.0
CHN001,16.0,main_files/trial_di/07_di_cross_150hz_75db_250ff-40p-60.wav,3.6805,di,40,p,60,175.0
CHN001,7.0,main_files/trial_di/07_di_cross_150hz_75db_250ff-000-60.wav,1.98,di,0,0,0,130.0
CHN001,12.0,main_files/trial_di/07_di_cross_150hz_75db_250ff-000-40.wav,4.3305,di,0,0,0,155.0
CHN001,13.0,main_files/trial_di/07_di_cross_150hz_75db_250ff-20p-100.wav,1.9986,di,20,p,100,160.0
CHN001,7.0,main_files/trial_di/07_di_cross_150hz_75db_250ff-30n-100.wav,2.198,di,30,n,100,130.0
CHN001,6.0,main_files/trial_di/07_di_cross_150hz_75db_250ff-20n-100.wav,1.8636,di,20,n,100,125.0
CHN001,6.0,main_files/trial_di/07_di_cross_150hz_75db_250ff-30n-40.wav,2.0314,di,30,n,40,125.0
CHN001,9.0,main_files/trial_di/07_di_cross_150hz_75db_250ff-10n-80.wav,1.8133,di,10,n,80,140.0
CHN001,17.0,main_files/trial_di/07_di_cross_150hz_75db_250ff-40p-80.wav,3.5471,di,40,p,80,180.0
CHN001,17.0,main_files/trial_di/07_di_cross_150hz_75db_250ff-40p-100.wav,1.8818,di,40,p,100,180.0
CHN001,10.0,main_files/trial_di/07_di_cross_150hz_75db_250ff-000-100.wav,2.1307,di,0,0,0,145.0
CHN001,8.0,main_files/trial_di/07_di_cross_150hz_75db_250ff-40n-80.wav,1.9802,di,40,n,80,135.0
CHN001,15.0,main_files/trial_di/07_di_cross_150hz_75db_250ff-20p-120.wav,1.7195,di,20,p,120,170.0
CHN001,14.0,main_files/trial_di/07_di_cross_150hz_75db_250ff-10p-60.wav,1.8648,di,10,p,60,165.0
CHN001,17.0,main_files/trial_di/07_di_cross_150hz_75db_250ff-40p-40.wav,1.699,di,40,p,40,180.0
CHN001,17.0,main_files/trial_di/07_di_cross_150hz_75db_250ff-30p-40.wav,1.9485,di,30,p,40,180.0
CHN001,5.0,main_files/trial_di/07_di_cross_150hz_75db_250ff-40n-40.wav,1.6147,di,40,n,40,120.0
CHN001,6.0,main_files/trial_di/07_di_cross_150hz_75db_250ff-20n-120.wav,3.0046,di,20,n,120,125.0
CHN001,15.0,main_files/trial_di/07_di_cross_150hz_75db_250ff-30p-60.wav,1.5962,di,30,p,60,170.0
CHN001,11.0,main_files/trial_di/07_di_cross_150hz_75db_250ff-000-120.wav,4.4143,di,0,0,0,150.0
CHN001,10.0,main_files/trial_di/07_di_cross_150hz_75db_250ff-10n-100.wav,3.5861,di,10,n,100,145.0
